Folder: RoomTmultiferroicityInTMDs-npj2DmatAppl/Data_available_for_npj_publication/Figure S2

Note: README.md
# RoomTmultiferroicityInTMDs-npj2DmatAppl
Data files for publication titled "Room Temperature Multiferroicity in a Transition Metal Dichalcogenide", npj 2D Materials and Applications

Publication information:

Article.pdf is the main manuscript file.

SI.pdf is the Supplementary Information file.

Folder "Data_available_for_npj_publication" containd all experimental data files for the figures in the main manuscript and supplementary information.

Forder "SI_Files" contains the supplementary files listed and explained in the last page of Supplementary information (SI.pdf).

File: FigureS2_XRD_spectra.txt
2theta	Theorical_peaks	2theta	Intensity	2theta	Intensity	2theta	Intensity	2theta	Intensity	2theta	Intensity
deg	a.u.	deg	a.u.	deg	a.u.	deg	a.u.	deg	a.u.	deg	a.u.
2H-WSe2	2H-WSe2	x=0%, d =4%	x=0%, d =4%	x=1.0%, d =1%	x=1.0%, d =1%	x=1.4%, d =9% 	x=1.4%, d =9% 	x=7.6%, d =38%	x=7.6%, d =38%	x=15%, d =21%	x=15%, d =21%
13.62	1	11.01315	0.01491	11.01315	1.11658	11.01315	2.01606	11.01315	3.03337	10	4.13403
76.18	1	11.64435	0.0117073	11.64435	1.11695	11.64435	2.01496	11.64435	3.03414	10.48	4.12836
		12.27555	0.0126223	12.27555	1.11492	12.27555	2.01615	12.27555	3.03025	10.96	4.13261
		12.90675	0.0138873	12.90675	1.11521	12.90675	2.0172	12.90675	3.03292	11.44	4.13025
		13.53795	0.886443	13.53795	1.89629	13.53795	2.84628	13.53795	3.774	11.92	4.13308
		14.16915	0.0246257	14.16915	1.12657	14.16915	2.02855	14.16915	3.03383	12.4	4.13167
		14.80035	0.0152329	14.80035	1.12002	14.80035	2.01813	14.80035	3.03071	12.88	4.15292
		15.43155	0.0121648	15.43155	1.11707	15.43155	2.01689	15.43155	3.0269	13.36	4.2011
		16.06275	0.0109806	16.06275	1.11553	16.06275	2.01544	16.06275	3.02713	13.84	4.13734
		16.69395	0.00920435	16.69395	1.11521	16.69395	2.015	16.69395	3.02514	14.32	4.13261
		17.32515	0.00804707	17.32515	1.11517	17.32515	2.01377	17.32515	3.02172	14.8	4.13214
		17.95635	0.00767029	17.95635	1.11124	17.95635	2.01412	17.95635	3.02522	15.28	4.13072
		18.58755	0.00718585	18.58755	1.11169	18.58755	2.01228	18.58755	3.02286	15.76	4.13214
		19.21875	0.00511353	19.21875	1.11068	19.21875	2.01276	19.21875	3.0221	16.24	4.13261
		19.84995	0.004656	19.84995	1.10874	19.84995	2.01236	19.84995	3.02248	16.72	4.1345
		20.48115	0.00594784	20.48115	1.11039	20.48115	2.01377	20.48115	3.02431	17.2	4.13261
		21.11235	0.00543648	21.11235	1.11116	21.11235	2.01232	21.11235	3.02537	17.68	4.1312
		21.74355	0.0050597	21.74355	1.11088	21.74355	2.01184	21.74355	3.02415	18.16	4.13308
		22.37475	0.00422539	22.37475	1.11031	22.37475	2.01166	22.37475	3.02179	18.64	4.13403
		23.00595	0.00368712	23.00595	1.10987	23.00595	2.01197	23.00595	3.02446	19.12	4.13403
		23.63715	0.0111959	23.63715	1.1114	23.63715	2.01241	23.63715	3.08062	19.6	4.13545
		24.26835	0.00339107	24.26835	1.10963	24.26835	2.00999	24.26835	3.02103	20.08	4.13545
		24.89955	0.00368712	24.89955	1.11039	24.89955	2.0088	24.89955	3.01943	20.56	4.13875
		25.53075	0.00266442	25.53075	1.1095	25.53075	2.00994	25.53075	3.02164	21.04	4.13828
		26.16195	0.00320268	26.16195	1.10934	26.16195	2.00937	26.16195	3.02507	21.52	4.13781
		26.79315	0.00371403	26.79315	1.11428	26.79315	2.01329	26.79315	3.01966	22	4.1397
		27.42435	0.0178166	27.42435	1.12083	27.42435	2.01575	27.42435	3.02118	22.48	4.13497
		28.05555	0.00422539	28.05555	1.11043	28.05555	2.0103	28.05555	3.02294	22.96	4.13545
		28.68675	0.00312194	28.68675	1.1087	28.68675	2.00832	28.68675	3.01753	23.44	4.13497
		29.31795	0.00236837	29.31795	1.10898	29.31795	2.00902	29.31795	3.01646	23.92	4.13308
		29.94915	0.0020185	29.94915	1.10906	29.94915	2.00854	29.94915	3.01608	24.4	4.13639
		30.58035	0.00139949	30.58035	1.10886	30.58035	2.00796	30.58035	3.01829	24.88	4.13497
		31.21155	0.00347181	31.21155	1.11476	31.21155	2.00884	31.21155	3.01973	25.36	4.13781
		31.84275	0.00417156	31.84275	1.1093	31.84275	2.00959	31.84275	3.02789	25.84	4.13308
		32.47395	0.00438687	32.47395	1.1093	32.47395	2.0077	32.47395	3.0144	26.32	4.13497
		33.10515	0.00131875	33.10515	1.10825	33.10515	2.0077	33.10515	3.01486	26.8	4.13734
		33.73635	0.00226072	33.73635	1.11007	33.73635	2.00783	33.73635	3.01707	27.28	4.13356
		34.36755	0.0026375	34.36755	1.11165	34.36755	2.00854	34.36755	3.01745	27.76	4.13639
		34.99875	0.000915052	34.99875	1.10825	34.99875	2.00739	34.99875	3.01699	28.24	4.1345
		35.62995	0.0119226	35.62995	1.11266	35.62995	2.00792	35.62995	3.04838	28.72	4.13734
		36.26115	0.00196467	36.26115	1.10942	36.26115	2.00849	36.26115	3.01417	29.2	4.13214
		36.89235	0.00166862	36.89235	1.10918	36.89235	2.0095	36.89235	3.01753	29.68	4.1345
		37.52355	0.00672832	37.52355	1.11322	37.52355	2.01267	37.52355	3.02362	30.16	4.1312
		38.15475	0.00234146	38.15475	1.11424	38.15475	2.00994	38.15475	3.01562	30.64	4.13167
		38.78595	0.00113036	38.78595	1.1091	38.78595	2.00766	38.78595	3.01486	31.12	4.143
		39.41715	0.00107653	39.41715	1.1093	39.41715	2.00739	39.41715	3.016	31.6	4.13356
		40.04835	0.00172245	40.04835	1.10906	40.04835	2.00955	40.04835	3.01859	32.08	4.1312
		40.67955	0.0106307	40.67955	1.11472	40.67955	2.01078	40.67955	3.03101	32.56	4.12931
		41.31075	0.109376	41.31075	1.16617	41.31075	2.0876	41.31075	3.29023	33.04	4.13025
		41.94195	0.412339	41.94195	1.33101	41.94195	2.11527	41.94195	3.01638	33.52	4.13167
		42.57315	0.00686289	42.57315	1.11335	42.57315	2.0117	42.57315	3.01882	34	4.13592
		43.20435	0.00570562	43.20435	1.1108	43.20435	2.01065	43.20435	3.01493	34.48	4.13167
		43.83555	0.00468291	43.83555	1.11056	43.83555	2.01047	43.83555	3.01562	34.96	4.12978
		44.46675	0.00333725	44.46675	1.1114	44.46675	2.01047	44.46675	3.01432	35.44	4.1312
		45.09795	0.0030412	45.09795	1.11003	45.09795	2.00977	45.09795	3.01836	35.92	4.13025
		45.72915	0.00220689	45.72915	1.11039	45.72915	2.0092	45.72915	3.01539	36.4	4.12742
		46.36035	0.00328342	46.36035	1.11047	46.36035	2.00994	46.36035	3.01829	36.88	4.13167
		46.99155	0.0062708	46.99155	1.11464	46.99155	2.01311	46.99155	3.02659	37.36	4.13356
		47.62275	0.00610932	47.62275	1.12297	47.62275	2.01333	47.62275	3.01669	37.84	4.12978
		48.25395	0.00920435	48.25395	1.11306	48.25395	2.00876	48.25395	3.02995	38.32	4.12978
		48.88515	0.0026375	48.88515	1.10983	48.88515	2.00867	48.88515	3.016	38.8	4.13497
		49.51635	0.00271824	49.51635	1.10942	49.51635	2.0088	49.51635	3.01562	39.28	4.12883
		50.14755	0.00317577	50.14755	1.10959	50.14755	2.00858	50.14755	3.01981	39.76	4.13356
		50.77875	0.00430613	50.77875	1.11157	50.77875	2.00972	50.77875	3.01958	40.24	4.13828
		51.40995	0.00468291	51.40995	1.11003	51.40995	2.00981	51.40995	3.01608	40.72	4.75888
		52.04115	0.00169554	52.04115	1.10946	52.04115	2.0099	52.04115	3.01707	41.2	4.13639
		52.67235	0.00274516	52.67235	1.11092	52.67235	2.00986	52.67235	3.0189	41.68	4.13072
		53.30355	0.00145332	53.30355	1.11367	53.30355	2.01184	53.30355	3.01539	42.16	4.13072
		53.93475	0.00449452	53.93475	1.11019	53.93475	2.01012	53.93475	3.01989	42.64	4.12931
		54.56595	0.0056787	54.56595	1.11339	54.56595	2.01294	54.56595	3.01852	43.12	4.12978
		55.19715	0.00871991	55.19715	1.11456	55.19715	2.01307	55.19715	3.02888	43.6	4.12883
		55.82835	0.203572	55.82835	1.23387	55.82835	2.01764	55.82835	3.31995	44.08	4.13025
		56.45955	0.306892	56.45955	1.22994	56.45955	2.55233	56.45955	3.0237	44.56	4.12931
		57.09075	0.117773	57.09075	1.17195	57.09075	2.02437	57.09075	3.01669	45.04	4.12931
		57.72195	0.0107653	57.72195	1.11464	57.72195	2.01421	57.72195	3.01806	45.52	4.12836
		58.35315	0.00699746	58.35315	1.11225	58.35315	2.01219	58.35315	3.0176	46	4.12789
		58.98435	0.0050597	58.98435	1.11015	58.98435	2.01091	58.98435	3.0173	46.48	4.14064
		59.61555	0.00584018	59.61555	1.11294	59.61555	2.00972	59.61555	3.01775	46.96	4.12789
		60.24675	0.00438687	60.24675	1.11262	60.24675	2.01012	60.24675	3.01532	47.44	4.1312
		60.87795	0.00331033	60.87795	1.11112	60.87795	2.00893	60.87795	3.01585	47.92	4.12931
		61.50915	0.00497896	61.50915	1.11128	61.50915	2.0092	61.50915	3.01562	48.4	4.12883
		62.14035	0.00293355	62.14035	1.11084	62.14035	2.00937	62.14035	3.0157	48.88	4.12978
		62.77155	0.00180319	62.77155	1.10934	62.77155	2.01043	62.77155	3.01448	49.36	4.12978
		63.40275	0.00266442	63.40275	1.10999	63.40275	2.00766	63.40275	3.01356	49.84	4.12931
		64.03395	0.00336416	64.03395	1.11003	64.03395	2.00796	64.03395	3.01562	50.32	4.12931
		64.66515	0.00422539	64.66515	1.10987	64.66515	2.00955	64.66515	3.01295	50.8	4.12978
		65.29635	0.00226072	65.29635	1.11043	65.29635	2.00906	65.29635	3.02819	51.28	4.12883
		65.92755	0.00333725	65.92755	1.11173	65.92755	2.01254	65.92755	3.01867	51.76	4.13072
		66.55875	0.0028259	66.55875	1.11504	66.55875	2.00871	66.55875	3.01684	52.24	4.13072
		67.18995	0.00293355	67.18995	1.10902	67.18995	2.00986	67.18995	3.01471	52.72	4.13356
		67.82115	0.00271824	67.82115	1.11088	67.82115	2.00818	67.82115	3.01653	53.2	4.12978
		68.45235	0.0020185	68.45235	1.11011	68.45235	2.00906	68.45235	3.01577	53.68	4.13167
		69.08355	0.00193776	69.08355	1.10942	69.08355	2.00876	69.08355	3.01501	54.16	4.13545
		69.71475	0.00252985	69.71475	1.11092	69.71475	2.00871	69.71475	3.01661	54.64	4.13545
		70.34595	0.00193776	70.34595	1.10865	70.34595	2.0092	70.34595	3.01608	55.12	4.65686
		70.97715	0.00376786	70.97715	1.10983	70.97715	2.00836	70.97715	3.01577	55.6	4.15339
		71.60835	0.0251639	71.60835	1.12313	71.60835	2.00854	71.60835	3.05326	56.08	4.13828
		72.23955	0.00470983	72.23955	1.11238	72.23955	2.01628	72.23955	3.01928	56.56	4.13025
		72.87075	0.0766221	72.87075	1.14441	72.87075	2.03564	72.87075	3.0224	57.04	4.13356
		73.50195	0.00610932	73.50195	1.11023	73.50195	2.01109	73.50195	3.01593	57.52	4.12931
		74.13315	0.00209924	74.13315	1.11043	74.13315	2.00792	74.13315	3.01532	58	4.13072
		74.76435	0.00153406	74.76435	1.1091	74.76435	2.00928	74.76435	3.01646	58.48	4.12978
		75.39555	0.00234146	75.39555	1.10946	75.39555	2.00871	75.39555	3.01509	58.96	4.12836
		76.02675	0.000915052	76.02675	1.10845	76.02675	2.00906	76.02675	3.01707	59.44	4.12836
		76.65795	0.000726659	76.65795	1.11011	76.65795	2.00708	76.65795	3.01379	59.92	4.12978
		77.28915	0.00172245	77.28915	1.10922	77.28915	2.00928	77.28915	3.01356	60.4	4.12883
		77.92035	0.00212615	77.92035	1.11019	77.92035	2.00924	77.92035	3.01478	60.88	4.12978
		78.55155	0.00191084	78.55155	1.10995	78.55155	2.00708	78.55155	3.01463	61.36	4.12836
		79.18275	0.00134566	79.18275	1.11027	79.18275	2.00862	79.18275	3.01676	61.84	4.13072
		79.81395	0.00139949	79.81395	1.10942	79.81395	2.00911	79.81395	3.0173	62.32	4.12931
										62.8	4.1312
										63.28	4.12978
										63.76	4.12694
										64.24	4.12836
										64.72	4.14159
										65.2	4.1312
										65.68	4.12789
										66.16	4.13167
										66.64	4.12931
										67.12	4.12931
										67.6	4.12931
										68.08	4.13025
										68.56	4.1312
										69.04	4.13025
										69.52	4.12836
										70	4.12836