Folder: RoomTmultiferroicityInTMDs-npj2DmatAppl/Data_available_for_npj_publication/Figure 1/Figure 1d,e,f

Note: README.md
# RoomTmultiferroicityInTMDs-npj2DmatAppl
Data files for publication titled "Room Temperature Multiferroicity in a Transition Metal Dichalcogenide", npj 2D Materials and Applications

Publication information:

Article.pdf is the main manuscript file.

SI.pdf is the Supplementary Information file.

Folder "Data_available_for_npj_publication" containd all experimental data files for the figures in the main manuscript and supplementary information.

Forder "SI_Files" contains the supplementary files listed and explained in the last page of Supplementary information (SI.pdf).

File: Figure1_XRDpeaks_and_spectra.txt
2theta	Theorical peaks	2theta	I	2theta	I
deg	Intensity	deg	(a.u.)	deg	(a.u.)
2H-WSe2	2H-WSe2	x=15,d=21%	x=15,d=21%	x=0,d=4%	x=0,d=4%
13.62	1	10	0.00514684	11.01315	0.0135545
56.64	1	10.22	0.00333031	11.30245	0.0121354
72.74	1	10.44	0.000908265	11.59175	0.0128694
		10.66	0.0027248	11.88105	0.0125758
		10.88	0.00363306	12.17035	0.0140194
		11.1	0.00454133	12.45965	0.0119152
		11.32	0.00544959	12.74895	0.0121354
		11.54	0.00544959	13.03825	0.015732
		11.76	0.00363306	13.32755	0.150763
		11.98	0.00393582	13.61685	0.973698
		12.2	0.00726612	13.90615	0.292156
		12.42	0.00393582	14.19545	0.0211636
		12.64	0.00968816	14.48475	0.0160256
		12.86	0.0169543	14.77405	0.0136768
		13.08	0.134726	15.06335	0.0130652
		13.3	0.238571	15.35265	0.0117195
		13.52	0.00908265	15.64195	0.0125514
		13.74	0.00484408	15.93125	0.0107898
		13.96	0.00544959	16.22055	0.00978665
		14.18	0.00635786	16.50985	0.00824525
		14.4	0.00242204	16.79915	0.00785379
		14.62	0.00393582	17.08845	0.00707086
		14.84	0.0027248	17.37775	0.00743785
		15.06	0.00333031	17.66705	0.00743785
		15.28	0.00302755	17.95635	0.00697299
		15.5	0.00242204	18.24565	0.00645919
		15.72	0.0027248	18.53495	0.00570072
		15.94	0.00333031	18.82425	0.00501566
		16.16	0.00242204	19.11355	0.00526032
		16.38	0.00242204	19.40285	0.00462419
		16.6	0.0027248	19.69215	0.00504013
		16.82	0.00363306	19.98145	0.00543159
		17.04	0.00544959	20.27075	0.00447739
		17.26	0.00514684	20.56005	0.00484439
		17.48	0.0060551	20.84935	0.00494226
		17.7	0.00514684	21.13865	0.00393913
		17.92	0.00423857	21.42795	0.00447739
		18.14	0.00484408	21.71725	0.00379233
		18.36	0.00363306	22.00655	0.00354766
		18.58	0.00484408	22.29585	0.00464866
		18.8	0.0060551	22.58515	0.0028626
		19.02	0.00454133	22.87445	0.00401253
		19.24	0.00817439	23.16375	0.00420826
		19.46	0.00393582	23.45305	0.00959092
		19.68	0.00635786	23.74235	0.00704639
		19.9	0.0060551	24.03165	0.00335193
		20.12	0.00575235	24.32095	0.00408593
		20.34	0.00666061	24.61025	0.00237326
		20.56	0.00817439	24.89955	0.00335193
		20.78	0.00544959	25.18885	0.00217753
		21	0.00393582	25.47815	0.0017616
		21.22	0.0060551	25.76745	0.00298493
		21.44	0.00696337	26.05675	0.00298493
		21.66	0.00787163	26.34605	0.00303386
		21.88	0.00363306	26.63535	0.002936
		22.1	0.00968816	26.92465	0.00369446
		22.32	0.00817439	27.21395	0.00601879
		22.54	0.0060551	27.50325	0.0147044
		22.76	0.00423857	27.79255	0.00616559
		22.98	0.0112019	28.08185	0.00318066
		23.2	0.00635786	28.37115	0.0021286
		23.42	0.00575235	28.66045	0.00291153
		23.64	0.00666061	28.94975	0.00195733
		23.86	0.00363306	29.23905	0.00222646
		24.08	0.00756888	29.52835	0.00159033
		24.3	0.00726612	29.81765	0.00195733
		24.52	0.00514684	30.10695	0.00159033
		24.74	0.00817439	30.39625	0.00105206
		24.96	0.00756888	30.68555	0.000929732
		25.18	0.00333031	30.97485	0.00171266
		25.4	0.00393582	31.26415	0.00188393
		25.62	0.0060551	31.55345	0.00445293
		25.84	0.00454133	31.84275	0.00379233
		26.06	0.00726612	32.13205	0.0174447
		26.28	0.00696337	32.42135	0.00711979
		26.5	0.00393582	32.71065	0.0030094
		26.72	0.00756888	32.99995	0.000978665
		26.94	0.00454133	33.28925	0.000685066
		27.16	0.00696337	33.57855	0.000831865
		27.38	0.00817439	33.86785	0.001101
		27.6	0.00423857	34.15715	0.000856332
		27.82	0.00544959	34.44645	0.0022754
		28.04	0.00454133	34.73575	0.00195733
		28.26	0.00696337	35.02505	0.000685066
		28.48	0.00514684	35.31435	0.0010276
		28.7	0.00393582	35.60365	0.0103494
		28.92	0.00363306	35.89295	0.00636132
		29.14	0.00514684	36.18225	0.001468
		29.36	0.00454133	36.47155	0.00173713
		29.58	0.00544959	36.76085	0.00141906
		29.8	0.00333031	37.05015	0.00134566
		30.02	0.00363306	37.33945	0.0024222
		30.24	0.0027248	37.62875	0.00689959
		30.46	0.00635786	37.91805	0.00704639
		30.68	0.00181653	38.20735	0.00325406
		30.9	0.00635786	38.49665	0.001101
		31.12	0.0108992	38.78595	0.0010276
		31.34	0.00423857	39.07525	0.0016882
		31.56	0.00242204	39.36455	0.00149246
		31.78	0.00333031	39.65385	0.000880799
		32	0.00211929	39.94315	0.000782932
		32.22	0.00393582	40.23245	0.00430613
		32.44	0.00302755	40.52175	0.00643472
		32.66	0.00393582	40.81105	0.0218487
		32.88	0.00211929	41.10035	0.114724
		33.1	0.00393582	41.38965	0.124021
		33.32	0.00423857	41.67895	0.686925
		33.54	0.00363306	41.96825	0.320048
		33.76	0.00242204	42.25755	0.0146066
		33.98	0.00696337	42.54685	0.00680172
		34.2	0.00454133	42.83615	0.00667939
		34.42	0.00211929	43.12545	0.00621452
		34.64	0.00121102	43.41475	0.00528479
		34.86	0.00333031	43.70405	0.00477099
		35.08	0.00363306	43.99335	0.00276473
		35.3	0.00181653	44.28265	0.0030094
		35.52	0.00454133	44.57195	0.00406146
		35.74	0.00242204	44.86125	0.00359659
		35.96	0.00333031	45.15055	0.00303386
		36.18	0.00242204	45.43985	0.00298493
		36.4	0.000908265	45.72915	0.00200626
		36.62	0.00211929	46.01845	0.00303386
		36.84	0.00302755	46.30775	0.00261793
		37.06	0.00635786	46.59705	0.00430613
		37.28	0.0087799	46.88635	0.00518693
		37.5	0.00363306	47.17565	0.00694852
		37.72	0.00151378	47.46495	0.00885692
		37.94	0.00151378	47.75425	0.00494226
		38.16	0.00242204	48.04355	0.00535819
		38.38	0.00211929	48.33285	0.00748679
		38.6	0.00302755	48.62215	0.00359659
		38.82	0.00363306	48.91145	0.00252006
		39.04	0.00423857	49.20075	0.002202
		39.26	0.00333031	49.49005	0.0026424
		39.48	0.00666061	49.77935	0.00193286
		39.7	0.00544959	50.06865	0.0024222
		39.92	0.00756888	50.35795	0.00215306
		40.14	0.00726612	50.64725	0.00398806
		40.36	0.0208901	50.93655	0.00540712
		40.58	0.474417	51.22585	0.00601879
		40.8	0.144414	51.51515	0.00332746
		41.02	0.00817439	51.80445	0.00122333
		41.24	0.00756888	52.09375	0.0016148
		41.46	0.0027248	52.38305	0.0024956
		41.68	0.00302755	52.67235	0.0024956
		41.9	0.00302755	52.96165	0.00310726
		42.12	0.00211929	53.25095	0.00239773
		42.34	0.00151378	53.54025	0.0026424
		42.56	0.00121102	53.82955	0.00291153
		42.78	0.0027248	54.11885	0.00327853
		43	0.00211929	54.40815	0.00391466
		43.22	0.00181653	54.69745	0.00672832
		43.44	0.00242204	54.98675	0.00697299
		43.66	0.00181653	55.27605	0.00995792
		43.88	0.00242204	55.56535	0.0599922
		44.1	0.00211929	55.85465	0.183035
		44.32	0.00121102	56.14395	0.0617782
		44.54	0.0027248	56.43325	0.217582
		44.76	0.00242204	56.72255	0.764729
		44.98	0.00242204	57.01185	0.216579
		45.2	0.00181653	57.30115	0.0160012
		45.42	0.00302755	57.59045	0.00934625
		45.64	0.00242204	57.87975	0.00893032
		45.86	0.00211929	58.16905	0.00697299
		46.08	0.00211929	58.45835	0.00570072
		46.3	0.00544959	58.74765	0.00506459
		46.52	0.00817439	59.03695	0.00479546
		46.74	0.0027248	59.32625	0.00528479
		46.96	0.00121102	59.61555	0.00530926
		47.18	0.00211929	59.90485	0.00455079
		47.4	0.00211929	60.19415	0.00347426
		47.62	0.000302755	60.48345	0.00291153
		47.84	0.0027248	60.77275	0.0027158
		48.06	0.00666061	61.06205	0.00318066
		48.28	0.00302755	61.35135	0.00415933
		48.5	0.00242204	61.64065	0.00303386
		48.72	0.00151378	61.92995	0.00296046
		48.94	0.00211929	62.21925	0.00276473
		49.16	0.00393582	62.50855	0.00225093
		49.38	0.00242204	62.79785	0.00200626
		49.6	0.00363306	63.08715	0.0022754
		49.82	0.0027248	63.37645	0.00259346
		50.04	0.00121102	63.66575	0.0024956
		50.26	0.00333031	63.95505	0.00237326
		50.48	0.00211929	64.24435	0.00335193
		50.7	0.00423857	64.53365	0.00357213
		50.92	0.00302755	64.82295	0.00313173
		51.14	0.00302755	65.11225	0.00173713
		51.36	0.00333031	65.40155	0.0026424
		51.58	0.00423857	65.69085	0.00291153
		51.8	0.00302755	65.98015	0.00232433
		52.02	0.00423857	66.26945	0.00435506
		52.24	0.00302755	66.55875	0.002569
		52.46	0.00333031	66.84805	0.00315619
		52.68	0.00635786	67.13735	0.00207966
		52.9	0.00302755	67.42665	0.002202
		53.12	0.00484408	67.71595	0.00318066
		53.34	0.00393582	68.00525	0.00247113
		53.56	0.00454133	68.29455	0.00178606
		53.78	0.00726612	68.58385	0.00193286
		54	0.00847714	68.87315	0.00122333
		54.22	0.00726612	69.16245	0.0027158
		54.44	0.00756888	69.45175	0.00362106
		54.66	0.00999092	69.74105	0.00374339
		54.88	0.0239177	70.03035	0.000954198
		55.1	0.220406	70.31965	0.0019084
		55.32	0.464729	70.60895	0.00283813
		55.54	0.0348168	70.89825	0.00195733
		55.76	0.0154405	71.18755	0.00305833
		55.98	0.0060551	71.47685	0.0155363
		56.2	0.00514684	71.76615	0.0190595
		56.42	0.00696337	72.05545	0.00516246
		56.64	0.0027248	72.34475	0.00496673
		56.86	0.00333031	72.63405	0.0446271
		57.08	0.00484408	72.92335	0.0667939
		57.3	0.00181653	73.21265	0.0161969
		57.52	0.00211929	73.50195	0.00555392
		57.74	0.00242204	73.79125	0.00261793
		57.96	0.0027248	74.08055	0.00254453
		58.18	0.00211929	74.36985	0.00254453
		58.4	0.00393582	74.65915	0.00141906
		58.62	0.00211929	74.94845	0.00188393
		58.84	0.00333031	75.23775	0.00274026
		59.06	0.00302755	75.52705	0.00137013
		59.28	0.00242204	75.81635	0.001835
		59.5	0.00333031	76.10565	0.00185946
		59.72	0.000908265	76.39495	0.00159033
		59.94	0.000908265	76.68425	0.00239773
		60.16	0.0027248	76.97355	0.00114993
		60.38	0.00242204	77.26285	0.00112546
		60.6	0.00211929	77.55215	0.000758465
		60.82	0.00242204	77.84145	0.00225093
		61.04	0.00121102	78.13075	0.000807399
		61.26	0.00363306	78.42005	0.00129673
		61.48	0.00211929	78.70935	0.00151693
		61.7	0.00242204	78.99865	0.00163926
		61.92	0.00181653	79.28795	0.00171266
		62.14	0.00121102	79.57725	0.00200626
		62.36	0.00121102	79.86655	0.00193286
		62.58	0.00211929	--	--
		62.8	0.00333031	--	--
		63.02	0.00151378	--	--
		63.24	0.00242204	--	--
		63.46	0.0027248	--	--
		63.68	0.00333031	--	--
		63.9	0.00151378	--	--
		64.12	0.00060551	--	--
		64.34	0.00151378	--	--
		64.56	0.00333031	--	--
		64.78	0.00544959	--	--
		65	0.00423857	--	--
		65.22	0.00242204	--	--
		65.44	0.00242204	--	--
		65.66	0.00121102	--	--
		65.88	0.00333031	--	--
		66.1	0.00121102	--	--
		66.32	0.00211929	--	--
		66.54	0.00181653	--	--
		66.76	0.00151378	--	--
		66.98	0.000302755	--	--
		67.2	0.00181653	--	--
		67.42	0.00302755	--	--
		67.64	0.00363306	--	--
		67.86	0.0027248	--	--
		68.08	0.0027248	--	--
		68.3	0.00333031	--	--
		68.52	0.00242204	--	--
		68.74	0.00333031	--	--
		68.96	0.000908265	--	--
		69.18	0.000908265	--	--
		69.4	0.00242204	--	--
		69.62	0.00363306	--	--
		69.84	0.00151378	--	--
		70	0.00151378	--	--